Folder: term_project/p_data

File: TGA.csv
date,1. open,2. high,3. low,4. close,5. adjusted close,6. volume,7. dividend amount,8. split coefficient
1999-08-11,0.4063,0.4688,0.4063,0.4688,0.4052,7100.0,0.0,1.0
1999-09-21,0.4063,0.4531,0.375,0.375,0.3242,19600.0,0.0,1.0
1999-10-29,0.3281,0.3281,0.2969,0.2969,0.2566,27200.0,0.0,1.0
1999-12-09,0.375,0.4375,0.375,0.4375,0.3782,21600.0,0.0,1.0
2000-01-20,0.3906,0.3906,0.3125,0.3125,0.2701,5800.0,0.0,1.0
2000-03-01,0.4219,0.4219,0.4219,0.4219,0.3647,6000.0,0.0,1.0
2000-04-10,0.5938,0.7031,0.5469,0.5469,0.4727,40000.0,0.0,1.0
2000-05-19,0.5625,0.5625,0.5,0.5156,0.4457,23000.0,0.0,1.0
2000-06-29,0.5469,0.5469,0.5,0.5,0.4322,30900.0,0.0,1.0
2000-08-09,0.4219,0.4844,0.4219,0.4844,0.4187,156000.0,0.0,1.0
2000-09-19,0.6563,0.7031,0.6563,0.6875,0.5943,176800.0,0.0,1.0
2000-10-27,0.8125,0.875,0.7813,0.8125,0.7024,125000.0,0.0,1.0
2000-12-07,0.5313,0.5313,0.4844,0.4844,0.4187,43600.0,0.0,1.0
2001-01-19,0.4063,0.4063,0.4063,0.4063,0.3512,15000.0,0.0,1.0
2001-03-01,0.4063,0.4063,0.4063,0.4063,0.3512,10000.0,0.0,1.0
2001-04-10,0.3,0.3,0.29,0.29,0.2507,30100.0,0.0,1.0
2001-05-21,0.38,0.44,0.36,0.44,0.3804,143400.0,0.0,1.0
2001-06-29,0.31,0.32,0.31,0.32,0.2766,7400.0,0.0,1.0
2001-08-09,0.32,0.32,0.32,0.32,0.2766,5000.0,0.0,1.0
2001-09-25,0.22,0.22,0.19,0.19,0.1642,18500.0,0.0,1.0
2001-11-02,0.27,0.28,0.24,0.24,0.2075,77500.0,0.0,1.0
2001-12-13,0.3,0.31,0.3,0.3,0.2593,29800.0,0.0,1.0
2002-01-25,0.36,0.4,0.36,0.4,0.3458,6500.0,0.0,1.0
2002-03-07,0.26,0.26,0.26,0.26,0.2248,0.0,0.0,1.0
2002-04-17,0.32,0.32,0.32,0.32,0.2766,21200.0,0.0,1.0
2002-05-28,0.38,0.38,0.37,0.37,0.3198,17000.0,0.0,1.0
2002-07-08,0.29,0.34,0.29,0.3,0.2593,20200.0,0.0,1.0
2002-08-15,0.29,0.29,0.29,0.29,0.2507,8300.0,0.0,1.0
2002-09-25,0.36,0.36,0.33,0.36,0.3112,73700.0,0.0,1.0
2002-11-04,0.3,0.3,0.3,0.3,0.2593,400.0,0.0,1.0
2002-12-13,0.44,0.44,0.4,0.4,0.3458,24400.0,0.0,1.0
2003-01-27,0.46,0.46,0.38,0.38,0.3285,207600.0,0.0,1.0
2003-03-07,0.46,0.47,0.45,0.46,0.3976,91700.0,0.0,1.0
2003-04-16,0.46,0.47,0.44,0.45,0.389,116000.0,0.0,1.0
2003-05-28,0.5,0.52,0.49,0.5,0.4322,77100.0,0.0,1.0
2003-07-08,0.53,0.53,0.49,0.5,0.4322,85600.0,0.0,1.0
2003-08-15,0.75,0.78,0.73,0.74,0.6397,198000.0,0.0,1.0
2003-09-25,1.0,1.0,0.9,0.95,0.8212,58300.0,0.0,1.0
2003-11-04,1.24,1.26,1.17,1.19,1.0287,214700.0,0.0,1.0
2003-12-15,2.17,2.25,2.08,2.22,1.9191,635400.0,0.0,1.0
2004-01-27,2.92,2.92,2.83,2.84,2.455,261700.0,0.0,1.0
2004-03-08,2.79,2.88,2.73,2.74,2.3686,259000.0,0.0,1.0
2004-04-16,2.7,2.75,2.63,2.74,2.3686,189400.0,0.0,1.0
2004-05-26,2.32,2.53,2.3,2.53,2.187,301600.0,0.0,1.0
2004-07-08,2.83,2.86,2.79,2.79,2.4118,152500.0,0.0,1.0
2004-08-17,2.4,2.4,2.28,2.33,2.0141,131900.0,0.0,1.0
2004-09-27,2.94,3.11,2.9,3.03,2.6193,853200.0,0.0,1.0
2004-11-04,3.88,3.9,3.65,3.89,3.3627,603400.0,0.0,1.0
2004-12-15,4.76,5.05,4.76,5.02,4.3395,463500.0,0.0,1.0
2005-01-26,5.94,5.94,5.85,5.9,5.1002,262500.0,0.0,1.0
2005-03-08,6.66,7.09,6.66,6.89,5.956,684800.0,0.0,1.0
2005-04-18,5.44,5.44,4.75,4.85,4.1925,998000.0,0.0,1.0
2005-05-26,4.56,5.0,4.56,4.98,4.3049,461500.0,0.0,1.0
2005-07-07,6.86,7.08,6.72,7.05,6.0943,383700.0,0.0,1.0
2005-08-16,6.35,6.36,6.15,6.15,5.3163,253100.0,0.0,1.0
2005-09-26,6.31,6.46,6.2,6.45,5.5756,272600.0,0.0,1.0
2005-11-03,5.55,5.62,5.46,5.52,4.7717,449900.0,0.0,1.0
2005-12-14,5.81,5.89,5.71,5.8,5.0138,343800.0,0.0,1.0
2006-01-26,5.6,5.65,5.6,5.6,4.8409,221200.0,0.0,1.0
2006-03-08,5.72,5.88,5.65,5.78,4.9965,233100.0,0.0,1.0
2006-04-18,6.0,6.05,6.0,6.01,5.1953,206300.0,0.0,1.0
2006-05-26,5.11,5.2,5.07,5.12,4.4259,101300.0,0.0,1.0
2006-07-07,5.1,5.12,5.01,5.04,4.3568,99100.0,0.0,1.0
2006-08-16,4.81,4.85,4.76,4.8,4.1493,69300.0,0.0,1.0
2006-09-26,4.55,4.6,4.51,4.56,3.9419,90000.0,0.0,1.0
2006-11-03,4.6,4.68,4.56,4.6,3.9764,153300.0,0.0,1.0
2006-12-14,5.34,5.4,5.31,5.35,4.6248,256300.0,0.0,1.0
2007-01-29,4.91,4.93,4.84,4.87,4.2098,109600.0,0.0,1.0
2007-03-09,4.47,4.5,4.31,4.35,3.7603,113700.0,0.0,1.0
2007-04-19,3.9,3.98,3.9,3.93,3.3973,124100.0,0.0,1.0
2007-05-30,3.84,3.94,3.84,3.93,3.3973,76100.0,0.0,1.0
2007-07-10,4.89,4.89,4.78,4.83,4.1753,286900.0,0.0,1.0
2007-08-17,3.79,3.88,3.55,3.88,3.354,294100.0,0.0,1.0
2007-09-27,5.2,5.29,5.04,5.17,4.4692,811300.0,0.0,1.0
2007-11-06,5.55,5.75,5.46,5.7,4.9273,479800.0,0.0,1.0
2007-12-17,5.3,5.54,5.3,5.45,4.7112,160700.0,0.0,1.0
2008-01-29,4.7,4.8,4.7,4.77,4.1234,46300.0,0.0,1.0
2008-03-10,5.57,5.57,5.07,5.08,4.3914,368400.0,0.0,1.0
2008-04-18,4.95,5.0,4.93,5.0,4.3222,205300.0,0.0,1.0
2008-05-29,5.18,5.18,5.03,5.05,4.3654,181100.0,0.0,1.0
2008-07-09,4.57,4.71,4.55,4.56,3.9419,182500.0,0.0,1.0
2008-08-18,3.87,4.0,3.8,3.81,3.2935,129900.0,0.0,1.0
2008-09-26,3.01,3.04,2.95,3.01,2.602,78400.0,0.0,1.0
2008-11-05,2.73,2.81,2.57,2.63,2.2735,311900.0,0.0,1.0
2008-12-16,2.25,2.56,2.25,2.51,2.1697,348600.0,0.0,1.0
2009-01-28,3.0,3.01,2.91,2.98,2.576,116300.0,0.0,1.0
2009-03-10,2.69,2.83,2.69,2.71,2.3426,229200.0,0.0,1.0
2009-04-20,2.49,2.49,2.36,2.4,2.0747,108900.0,0.0,1.0
2009-05-29,2.63,2.69,2.6,2.69,2.3253,111400.0,0.0,1.0
2009-07-09,2.26,2.42,2.21,2.3,1.9882,213200.0,0.0,1.0
2009-08-18,3.05,3.09,3.05,3.09,2.6711,70000.0,0.0,1.0
2009-09-28,3.47,3.53,3.41,3.46,2.991,74400.0,0.0,1.0
2009-11-05,4.02,4.04,3.8,3.87,3.3454,195800.0,0.0,1.0
2009-12-16,3.49,3.52,3.44,3.44,2.9737,65900.0,0.0,1.0
2010-01-28,3.53,3.76,3.53,3.63,3.1379,136300.0,0.0,1.0
2010-03-10,4.3,4.64,4.26,4.58,3.9591,339200.0,0.0,1.0
2010-04-20,6.86,7.09,6.86,7.04,6.0857,679700.0,0.0,1.0
2010-05-28,6.95,7.12,6.84,6.91,5.9733,126300.0,0.0,1.0
2010-07-09,7.59,7.73,7.53,7.62,6.587,118800.0,0.0,1.0
2010-08-18,7.77,7.87,7.69,7.77,6.7167,127200.0,0.0,1.0
2010-09-28,9.61,9.7,9.51,9.6,8.2986,270200.0,0.0,1.0
2010-11-05,13.05,14.66,13.05,14.63,12.6468,1059600.0,0.0,1.0
2010-12-16,14.08,14.83,13.73,14.68,12.69,1205100.0,0.0,1.0
2011-01-27,14.0,14.05,13.11,13.44,11.6181,1121900.0,0.0,1.0
2011-03-09,15.02,15.13,14.35,14.45,12.4912,521500.0,0.0,1.0
2011-04-18,13.99,13.99,13.37,13.78,11.912,155100.0,0.0,1.0
2011-05-27,13.82,14.41,13.74,14.37,12.422,179500.0,0.0,1.0
2011-07-08,12.48,12.62,12.23,12.53,10.8314,102200.0,0.0,1.0
2011-08-17,9.58,9.8,9.25,9.38,8.1085,103600.0,0.0,1.0
2011-09-27,8.86,9.5,8.86,9.14,7.901,130000.0,0.0,1.0
2011-11-04,10.11,10.24,9.97,10.2,8.8173,137200.0,0.0,1.0
2011-12-15,6.99,6.99,6.8,6.87,5.9387,48900.0,0.0,1.0
2012-01-27,9.4,9.52,9.34,9.41,8.1344,79900.0,0.0,1.0
2012-03-08,11.57,11.91,11.35,11.76,10.1658,309100.0,0.0,1.0
2012-04-18,12.79,13.06,12.71,13.04,11.2723,96700.0,0.0,1.0
2012-05-29,10.63,11.18,10.5,10.54,9.1112,89200.0,0.0,1.0
2012-07-09,8.81,8.94,8.74,8.83,7.633,109300.0,0.0,1.0
2012-08-16,9.53,9.96,9.47,9.93,8.5839,104500.0,0.0,1.0
2012-09-26,10.56,10.56,10.17,10.34,8.9383,131400.0,0.0,1.0
2012-11-07,12.07,12.24,11.79,11.8,10.2004,102000.0,0.0,1.0
2012-12-18,9.7,9.72,9.62,9.68,8.3678,162900.0,0.0,1.0
2013-01-30,8.45,8.56,8.33,8.44,7.2959,52000.0,0.0,1.0
2013-03-12,8.93,9.06,8.87,9.0,7.78,59500.0,0.0,1.0
2013-04-22,7.18,7.37,7.15,7.23,6.2499,37500.0,0.0,1.0
2013-05-31,7.59,7.63,7.32,7.37,6.3709,63800.0,0.0,1.0
2013-07-11,5.79,6.11,5.79,6.08,5.2558,87200.0,0.0,1.0
2013-08-20,6.51,6.84,6.51,6.74,5.8263,56800.0,0.0,1.0
2013-09-30,7.82,7.95,7.75,7.86,6.7945,181100.0,0.0,1.0
2013-11-07,9.15,9.21,8.72,8.78,7.5898,229500.0,0.0,1.0
2013-12-18,8.69,8.7,8.39,8.41,7.2699,170300.0,0.0,1.0
2014-01-30,7.6,7.6,7.32,7.43,6.4228,201800.0,0.0,1.0
2014-03-12,7.49,7.51,7.27,7.3,6.3104,76900.0,0.0,1.0
2014-04-22,7.78,8.07,7.74,8.0,6.9155,202500.0,0.0,1.0
2014-06-02,6.87,7.0,6.87,6.98,6.1268,269100.0,0.0,1.0
2014-07-11,6.92,6.94,6.8,6.91,6.1504,61700.0,0.0,1.0
2014-08-20,6.36,6.41,6.3,6.31,5.6164,104000.0,0.0,1.0
2014-09-30,6.21,6.25,5.98,6.08,5.4545,62400.0,0.0,1.0
2014-11-07,4.19,4.36,4.17,4.31,3.8666,244200.0,0.0,1.0
2014-12-18,3.41,3.55,3.22,3.26,2.9742,382800.0,0.0,1.0
2015-01-30,2.75,2.95,2.71,2.91,2.6549,286200.0,0.0,1.0
2015-03-12,2.96,2.96,2.85,2.87,2.6631,244100.0,0.05,1.0
2015-04-22,4.36,4.41,4.25,4.33,4.0178,349200.0,0.0,1.0
2015-06-02,4.07,4.2,4.07,4.14,3.8415,113200.0,0.0,1.0
2015-07-13,3.59,3.7,3.51,3.64,3.4186,155600.0,0.0,1.0
2015-08-20,2.7,2.83,2.64,2.68,2.517,74000.0,0.0,1.0
2015-09-30,2.61,2.69,2.55,2.64,2.5259,87300.0,0.0,1.0
2015-11-09,2.72,2.75,2.66,2.7,2.5833,63300.0,0.0,1.0
2015-12-18,1.64,1.71,1.6,1.68,1.6314,157500.0,0.0,1.0
2016-02-01,1.4,1.41,1.34,1.37,1.3303,41400.0,0.0,1.0
2016-03-11,1.71,1.76,1.68,1.72,1.6702,193900.0,0.0,1.0
2016-04-21,2.1,2.1,1.86,1.89,1.8353,105700.0,0.0,1.0
2016-06-01,1.7,1.73,1.64,1.73,1.6799,200000.0,0.0,1.0
2016-07-12,1.75,1.81,1.73,1.8,1.7479,72300.0,0.0,1.0
2016-08-19,2.11,2.12,2.0,2.01,1.9518,158900.0,0.0,1.0
2016-09-29,1.97,2.0,1.93,1.95,1.8936,60200.0,0.0,1.0
2016-11-08,1.79,1.86,1.78,1.8,1.7479,48400.0,0.0,1.0
2016-12-19,1.74,1.74,1.67,1.67,1.6217,90100.0,0.0,1.0
2017-01-31,1.75,1.75,1.66,1.68,1.6314,139100.0,0.0,1.0
2017-03-13,1.65,1.65,1.56,1.59,1.544,61100.0,0.0,1.0
2017-04-21,1.54,1.58,1.47,1.53,1.4857,119700.0,0.0,1.0
2017-06-01,1.48,1.49,1.45,1.45,1.408,135900.0,0.0,1.0
2017-07-12,1.27,1.34,1.27,1.3,1.2624,46600.0,0.0,1.0
2017-08-21,1.19,1.22,1.18,1.2,1.1653,63100.0,0.0,1.0
2017-09-29,1.38,1.44,1.38,1.44,1.3983,101500.0,0.0,1.0
2017-11-08,1.56,1.57,1.51,1.52,1.476,20400.0,0.0,1.0
2017-12-19,1.27,1.28,1.26,1.26,1.2235,78000.0,0.0,1.0
2018-01-31,1.4,1.48,1.38,1.47,1.4275,118600.0,0.0,1.0
2018-03-13,1.28,1.34,1.28,1.34,1.3012,44200.0,0.0,1.0
2018-04-23,1.6,1.6,1.53,1.57,1.5246,136600.0,0.0,1.0
2018-06-01,2.56,2.58,2.43,2.47,2.3985,415800.0,0.0,1.0
2018-07-12,3.89,3.89,3.66,3.76,3.6512,1408600.0,0.0,1.0
2018-08-21,3.38,3.58,3.31,3.47,3.3696,575500.0,0.0,1.0
2018-10-01,3.35,3.57,3.35,3.52,3.453,466200.0,0.0,1.0
2018-11-08,2.3,2.37,2.14,2.22,2.1778,358600.0,0.0,1.0
2018-12-20,1.66,1.66,1.55,1.62,1.5892,302600.0,0.0,1.0
2019-02-01,1.82,1.99,1.82,1.93,1.8933,101700.0,0.0,1.0
2019-03-14,2.1,2.19,2.03,2.08,2.0404,106100.0,0.0,1.0
2019-04-24,1.95,1.97,1.89,1.92,1.92,158900.0,0.0,1.0
2019-06-04,1.53,1.55,1.49,1.54,1.54,64800.0,0.0,1.0
2019-07-15,1.47,1.5,1.46,1.48,1.48,75300.0,0.0,1.0
2019-08-09,1.45,1.48,1.42,1.43,1.43,40800.0,0.0,1.0